"wavelength(nm)" "measured PPFD (umol m-2 s-1 nm-1)"
401 0.0555
403 0.086
405 0.14
407 0.114
409 0.1575
411 0.2065
413 0.234
415 0.201
417 0.2765
419 0.302
421 0.36
423 0.3375
425 0.242
427 0.208
429 0.1885
431 0.199
433 0.159
435 0.2155
437 0.2345
439 0.1925
441 0.1885
443 0.1565
445 0.1885
447 0.179
449 0.184
451 0.171
453 0.209
455 0.21
457 0.258
459 0.25
461 0.27
463 0.252
465 0.2465
467 0.2135
469 0.2425
471 0.2105
473 0.26
475 0.2315
477 0.2185
479 0.254
481 0.2235
483 0.2305
485 0.2075
487 0.186
489 0.2425
491 0.2175
493 0.228
495 0.2405
497 0.2205
499 0.235
501 0.2355
503 0.255
505 0.3305
507 0.3
509 0.271
511 0.213
513 0.2945
515 0.2525
517 0.257
519 0.304
521 0.2355
523 0.274
525 0.247
527 0.244
529 0.2585
531 0.337
533 0.3185
535 0.629
537 1.429
539 0.9295
541 0.602
543 0.368
545 0.292
547 0.4865
549 0.3045
551 0.2805
553 0.2555
555 0.285
557 0.307
559 0.277
561 0.266
563 0.3195
565 0.4485
567 0.3795
569 0.465
571 0.3805
573 0.3495
575 0.3465
577 0.4215
579 0.38
581 0.3535
583 0.328
585 0.3415
587 0.4225
589 0.388
591 0.4325
593 0.4095
595 0.4485
597 0.4735
599 0.692
601 0.5065
603 0.459
605 0.3925
607 0.404
609 0.4955
611 0.4905
613 0.4515
615 0.465
617 0.502
619 0.46
621 0.414
623 0.4355
625 0.3975
627 0.574
629 0.3875
631 0.424
633 0.399
635 0.392
637 0.4045
639 0.4175
641 0.377
643 0.431
645 0.4015
647 0.4515
649 0.399
651 0.333
653 0.3255
655 0.405
657 0.4895
659 0.4705
661 0.5295
663 0.489
665 0.425
667 0.4685
669 0.462
671 0.415
673 0.496
675 0.4345
677 0.3995
679 0.49
681 0.3655
683 0.4245
685 0.6275
687 0.5065
689 0.3495
691 0.365
693 0.322
695 0.4385
697 0.5325
699 0.565
701 0.3725
703 0.309
705 0.2635
707 0.2415
709 0.2245
711 0.22
713 0.2375
715 0.211
717 0.2025
719 0.203
721 0.2405
723 0.284
725 0.281
727 0.2605
729 0.284
731 0.233
733 0.1825
735 0.185
737 0.209
739 0.2195
741 0.2325
743 0.2155
745 0.1805
747 0.1865
749 0.266
751 0.2185
753 0.186
755 0.468
757 0.495
759 0.268
761 0.3175
763 0.322
765 0.336
767 0.4145
769 0.2955
771 0.3175
773 0.318
775 0.23
777 0.1885
779 0.189
781 0.2605
783 0.297
785 0.1735
787 0.1455
789 0.137
791 0.1675
793 0.2785
795 0.312
797 0.198
799 0.1555
